Folder: cfht-etc

File: Optics_TR.dat
May 3, 2001

Here is the transmission of the MegaPrime optics:
- Wide Field Corrector
- Image Stabilizing Plate
- Camera Window

Calculations are based on real coatings on all elements
but the front lens (not coated yet)

Wavelength (nm)	Transmission On-Axis
300	0.000
303	0.003
306	0.055
309	0.479
312	1.957
315	5.551
318	13.313
321	24.754
324	33.738
327	44.113
330	55.928
333	59.898
336	63.532
339	67.031
342	68.879
345	69.924
348	71.088
351	72.021
354	72.259
357	72.635
360	73.170
363	74.321
366	75.359
369	76.059
372	76.585
375	77.071
378	77.562
381	77.837
384	78.276
387	78.617
390	78.870
393	79.144
396	79.333
399	79.517
402	79.548
405	79.547
408	79.511
411	79.529
414	79.566
417	79.600
420	79.674
423	79.834
426	80.019
429	80.188
432	80.457
435	80.751
438	81.043
441	81.369
444	81.774
447	82.111
450	82.503
453	82.895
456	83.284
459	83.672
462	84.027
465	84.390
468	84.665
471	85.010
474	85.240
477	85.487
480	85.728
483	85.979
486	86.198
489	86.377
492	86.529
495	86.659
498	86.741
501	86.726
504	86.685
507	86.584
510	86.478
513	86.357
516	86.209
519	86.030
522	85.865
525	85.660
528	85.450
531	85.216
534	85.013
537	84.818
540	84.538
543	84.291
546	84.097
549	83.855
552	83.607
555	83.361
558	83.088
561	82.868
564	82.616
567	82.376
570	82.182
573	81.990
576	81.813
579	81.601
582	81.414
585	81.241
588	81.095
591	80.954
594	80.832
597	80.690
600	80.565
603	80.515
606	80.444
609	80.376
612	80.328
615	80.288
618	80.269
621	80.229
624	80.219
627	80.235
630	80.207
633	80.245
636	80.242
639	80.275
642	80.308
645	80.346
648	80.386
651	80.441
654	80.551
657	80.615
660	80.725
663	80.848
666	80.994
669	81.061
672	81.169
675	81.260
678	81.375
681	81.573
684	81.698
687	81.828
690	81.963
693	82.143
696	82.248
699	82.397
702	82.556
705	82.708
708	82.819
711	82.973
714	83.082
717	83.192
720	83.345
723	83.517
726	83.641
729	83.805
732	83.933
735	84.096
738	84.266
741	84.389
744	84.526
747	84.676
750	84.792
753	84.972
756	85.117
759	85.245
762	85.391
765	85.593
768	85.694
771	85.791
774	85.924
777	86.103
780	86.181
783	86.316
786	86.414
789	86.549
792	86.632
795	86.777
798	86.803
801	86.852
804	86.937
807	86.991
810	87.029
813	87.100
816	87.161
819	87.165
822	87.224
825	87.261
828	87.301
831	87.302
834	87.356
837	87.429
840	87.498
843	87.546
846	87.584
849	87.626
852	87.636
855	87.653
858	87.678
861	87.711
864	87.722
867	87.740
870	87.694
873	87.671
876	87.654
879	87.631
882	87.555
885	87.485
888	87.417
891	87.344
894	87.224
897	87.115
900	87.011
903	86.892
906	86.674
909	86.500
912	86.325
915	86.140
918	85.974
921	85.740
924	85.507
927	85.296
930	85.048
933	84.776
936	84.534
939	84.259
942	83.972
945	83.698
948	83.434
951	83.166
954	82.875
957	82.604
960	82.293
963	81.994
966	81.645
969	81.295
972	80.943
975	80.635
978	80.289
981	79.943
984	79.615
987	79.293
990	78.921
993	78.557
996	78.175
999	77.807
1002	77.451
1005	77.134
1008	76.771
1011	76.415
1014	76.062
1017	75.730
1020	75.343
1023	74.991
1026	74.641
1029	74.267
1032	73.901
1035	73.553
1038	73.174
1041	72.806
1044	72.423
1047	72.037
1050	71.637
1053	71.224
1056	70.834
1059	70.435
1062	70.029
1065	69.640
1068	69.250
1071	69.017
1074	68.808
1077	68.600
1080	68.365
1083	67.964
1086	67.558
1089	67.122
1092	66.711
1095	66.253
1098	65.897
1100	65.624